# ng (2e), chi (MHz)
0.000e+00 8.552e-01
1.250e-02 8.544e-01
2.500e-02 8.521e-01
3.750e-02 8.482e-01
5.000e-02 8.428e-01
6.250e-02 8.358e-01
7.500e-02 8.274e-01
8.750e-02 8.174e-01
1.000e-01 8.060e-01
1.125e-01 7.932e-01
1.250e-01 7.789e-01
1.375e-01 7.632e-01
1.500e-01 7.462e-01
1.625e-01 7.278e-01
1.750e-01 7.082e-01
1.875e-01 6.874e-01
2.000e-01 6.653e-01
2.125e-01 6.421e-01
2.250e-01 6.178e-01
2.375e-01 5.924e-01
2.500e-01 5.661e-01
2.625e-01 5.387e-01
2.750e-01 5.105e-01
2.875e-01 4.815e-01
3.000e-01 4.517e-01
3.125e-01 4.212e-01
3.250e-01 3.902e-01
3.375e-01 3.587e-01
3.500e-01 3.269e-01
3.625e-01 2.950e-01
3.750e-01 2.631e-01
3.875e-01 2.316e-01
4.000e-01 2.009e-01
4.125e-01 1.712e-01
4.250e-01 1.433e-01
4.375e-01 1.177e-01
4.500e-01 9.517e-02
4.625e-01 7.652e-02
4.750e-01 6.251e-02
4.875e-01 5.380e-02
5.000e-01 5.084e-02
